"960_1 - RawData"
"Wavelength nm.","T%"
190.00,0.0291
192.00,0.0304
194.00,0.0321
196.00,0.0337
198.00,0.0353
200.00,0.0361
202.00,0.0362
204.00,0.0372
206.00,0.0375
208.00,0.0376
210.00,0.0370
212.00,0.0372
214.00,0.0375
216.00,0.0375
218.00,0.0374
220.00,0.0375
222.00,0.0383
224.00,0.0388
226.00,0.0392
228.00,0.0392
230.00,0.0390
232.00,0.0388
234.00,0.0385
236.00,0.0388
238.00,0.0391
240.00,0.0386
242.00,0.0387
244.00,0.0385
246.00,0.0386
248.00,0.0387
250.00,0.0389
252.00,0.0395
254.00,0.0395
256.00,0.0393
258.00,0.0392
260.00,0.0392
262.00,0.0390
264.00,0.0383
266.00,0.0381
268.00,0.0388
270.00,0.0393
272.00,0.0396
274.00,0.0392
276.00,0.0393
278.00,0.0393
280.00,0.0393
282.00,0.0388
284.00,0.0391
286.00,0.0385
288.00,0.0381
290.00,0.0376
292.00,0.0378
294.00,0.0344
296.00,0.0312
298.00,0.0284
300.00,0.0285
302.00,0.0283
304.00,0.0274
306.00,0.0270
308.00,0.0265
310.00,0.0268
312.00,0.0268
314.00,0.0267
316.00,0.0264
318.00,0.0273
320.00,0.0275
322.00,0.0281
324.00,0.0276
326.00,0.0275
328.00,0.0272
330.00,0.0271
332.00,0.0277
334.00,0.0278
336.00,0.0281
338.00,0.0272
340.00,0.0269
342.00,0.0267
344.00,0.0278
346.00,0.0283
348.00,0.0285
350.00,0.0280
352.00,0.0275
354.00,0.0277
356.00,0.0278
358.00,0.0281
360.00,0.0280
362.00,0.0283
364.00,0.0276
366.00,0.0275
368.00,0.0274
370.00,0.0275
372.00,0.0281
374.00,0.0278
376.00,0.0284
378.00,0.0278
380.00,0.0280
382.00,0.0282
384.00,0.0284
386.00,0.0284
388.00,0.0282
390.00,0.0275
392.00,0.0279
394.00,0.0283
396.00,0.0292
398.00,0.0290
400.00,0.0288
402.00,0.0284
404.00,0.0285
406.00,0.0282
408.00,0.0283
410.00,0.0283
412.00,0.0284
414.00,0.0291
416.00,0.0291
418.00,0.0287
420.00,0.0291
422.00,0.0289
424.00,0.0289
426.00,0.0286
428.00,0.0289
430.00,0.0289
432.00,0.0279
434.00,0.0269
436.00,0.0276
438.00,0.0283
440.00,0.0292
442.00,0.0291
444.00,0.0287
446.00,0.0282
448.00,0.0276
450.00,0.0272
452.00,0.0271
454.00,0.0275
456.00,0.0277
458.00,0.0275
460.00,0.0270
462.00,0.0267
464.00,0.0273
466.00,0.0279
468.00,0.0293
470.00,0.0297
472.00,0.0296
474.00,0.0285
476.00,0.0278
478.00,0.0275
480.00,0.0274
482.00,0.0280
484.00,0.0282
486.00,0.0283
488.00,0.0280
490.00,0.0283
492.00,0.0287
494.00,0.0284
496.00,0.0281
498.00,0.0270
500.00,0.0280
502.00,0.0281
504.00,0.0289
506.00,0.0287
508.00,0.0286
510.00,0.0291
512.00,0.0288
514.00,0.0293
516.00,0.0290
518.00,0.0292
520.00,0.0282
522.00,0.0278
524.00,0.0274
526.00,0.0275
528.00,0.0279
530.00,0.0280
532.00,0.0287
534.00,0.0286
536.00,0.0284
538.00,0.0279
540.00,0.0280
542.00,0.0281
544.00,0.0284
546.00,0.0288
548.00,0.0284
550.00,0.0283
552.00,0.0282
554.00,0.0280
556.00,0.0284
558.00,0.0286
560.00,0.0295
562.00,0.0298
564.00,0.0297
566.00,0.0296
568.00,0.0294
570.00,0.0295
572.00,0.0298
574.00,0.0302
576.00,0.0305
578.00,0.0311
580.00,0.0316
582.00,0.0324
584.00,0.0331
586.00,0.0342
588.00,0.0352
590.00,0.0365
592.00,0.0384
594.00,0.0408
596.00,0.0439
598.00,0.0475
600.00,0.0521
602.00,0.0572
604.00,0.0631
606.00,0.0699
608.00,0.0782
610.00,0.0876
612.00,0.0973
614.00,0.1080
616.00,0.1204
618.00,0.1347
620.00,0.1499
622.00,0.1657
624.00,0.1810
626.00,0.1965
628.00,0.2102
630.00,0.2228
632.00,0.2361
634.00,0.2526
636.00,0.2754
638.00,0.3075
640.00,0.3510
642.00,0.4045
644.00,0.4591
646.00,0.5031
648.00,0.5223
650.00,0.5060
652.00,0.4563
654.00,0.3865
656.00,0.3166
658.00,0.2598
660.00,0.2204
662.00,0.1938
664.00,0.1758
666.00,0.1630
668.00,0.1549
670.00,0.1522
672.00,0.1559
674.00,0.1671
676.00,0.1869
678.00,0.2172
680.00,0.2633
682.00,0.3305
684.00,0.4237
686.00,0.5364
688.00,0.6502
690.00,0.7330
692.00,0.7566
694.00,0.7136
696.00,0.6219
698.00,0.5141
700.00,0.4151
702.00,0.3372
704.00,0.2812
706.00,0.2428
708.00,0.2161
710.00,0.1970
712.00,0.1839
714.00,0.1755
716.00,0.1700
718.00,0.1664
720.00,0.1698
722.00,0.1742
724.00,0.1795
726.00,0.1807
728.00,0.1835
730.00,0.1863
732.00,0.1893
734.00,0.1931
736.00,0.1980
738.00,0.2038
740.00,0.2101
742.00,0.2186
744.00,0.2297
746.00,0.2434
748.00,0.2592
750.00,0.2780
752.00,0.2985
754.00,0.3211
756.00,0.3429
758.00,0.3626
760.00,0.3753
762.00,0.3791
764.00,0.3719
766.00,0.3551
768.00,0.3299
770.00,0.2993
772.00,0.2663
774.00,0.2342
776.00,0.2059
778.00,0.1810
780.00,0.1613
782.00,0.1447
784.00,0.1320
786.00,0.1206
788.00,0.1118
790.00,0.1040
792.00,0.0983
794.00,0.0932
796.00,0.0896
798.00,0.0861
800.00,0.0840
802.00,0.0821
804.00,0.0806
806.00,0.0793
808.00,0.0790
810.00,0.0790
812.00,0.0791
814.00,0.0787
816.00,0.0789
818.00,0.0791
820.00,0.0802
822.00,0.0813
824.00,0.0824
826.00,0.0841
828.00,0.0861
830.00,0.0915
832.00,0.0953
834.00,0.1025
836.00,0.1078
838.00,0.1129
840.00,0.1188
842.00,0.1264
844.00,0.1355
846.00,0.1463
848.00,0.1584
850.00,0.1704
852.00,0.1864
854.00,0.2048
856.00,0.2314
858.00,0.2604
860.00,0.2967
862.00,0.3358
864.00,0.3860
866.00,0.4469
868.00,0.5241
870.00,0.6171
872.00,0.7338
874.00,0.8801
876.00,1.0650
878.00,1.3003
880.00,1.5970
882.00,1.9732
884.00,2.4541
886.00,3.0571
888.00,3.8333
890.00,4.8112
892.00,6.0451
894.00,7.5496
896.00,9.3282
898.00,11.3901
900.00,13.7754
902.00,16.4318
904.00,19.2417
906.00,22.0090
908.00,24.6706
910.00,27.2015
912.00,29.5543
914.00,31.7072
916.00,33.6315
918.00,35.3547
920.00,36.8827
922.00,38.2063
924.00,39.3743
926.00,40.3907
928.00,41.2941
930.00,42.0610
932.00,42.7076
934.00,43.2308
936.00,43.6394
938.00,43.9319
940.00,44.1326
942.00,44.2703
944.00,44.3706
946.00,44.4437
948.00,44.4943
950.00,44.5277
952.00,44.5595
954.00,44.5931
956.00,44.6303
958.00,44.6794
960.00,44.7499
962.00,44.8351
964.00,44.9132
966.00,44.9873
968.00,45.0594
970.00,45.1328
972.00,45.1882
974.00,45.2458
976.00,45.2928
978.00,45.3349
980.00,45.3337
982.00,45.2785
984.00,45.1500
986.00,44.9183
988.00,44.5319
990.00,43.9380
992.00,43.0637
994.00,41.8767
996.00,40.3447
998.00,38.4247
1000.00,36.0777
1002.00,33.3739
1004.00,30.4717
1006.00,27.5251
1008.00,24.6078
1010.00,21.7502
1012.00,19.0087
1014.00,16.4216
1016.00,14.1036
1018.00,12.0678
1020.00,10.3325
1022.00,8.8303
1024.00,7.5564
1026.00,6.4731
1028.00,5.5675
1030.00,4.8048
1032.00,4.1724
1034.00,3.6349
1036.00,3.1872
1038.00,2.8080
1040.00,2.4925
1042.00,2.2209
1044.00,1.9873
1046.00,1.7855
1048.00,1.6113
1050.00,1.4587
1052.00,1.3261
1054.00,1.2110
1056.00,1.1112
1058.00,1.0229
1060.00,0.9462
1062.00,0.8785
1064.00,0.8195
1066.00,0.7666
1068.00,0.7202
1070.00,0.6784
1072.00,0.6419
1074.00,0.6094
1076.00,0.5806
1078.00,0.5540
1080.00,0.5304
1082.00,0.5083
1084.00,0.4889
1086.00,0.4713
1088.00,0.4561
1090.00,0.4421
1092.00,0.4291
1094.00,0.4174
1096.00,0.4072
1098.00,0.3982
1100.00,0.3897
1102.00,0.3824
1104.00,0.3758
1106.00,0.3703
1108.00,0.3652
1110.00,0.3610
1112.00,0.3576
1114.00,0.3550
1116.00,0.3529
1118.00,0.3510
1120.00,0.3498
1122.00,0.3489
1124.00,0.3485
1126.00,0.3486
1128.00,0.3493
1130.00,0.3508
1132.00,0.3528
1134.00,0.3550
1136.00,0.3577
1138.00,0.3605
1140.00,0.3642
1142.00,0.3679
1144.00,0.3724
1146.00,0.3776
1148.00,0.3831
1150.00,0.3879
1152.00,0.3925
1154.00,0.3976
1156.00,0.4027
1158.00,0.4076
1160.00,0.4125
1162.00,0.4183
1164.00,0.4235
1166.00,0.4293
1168.00,0.4339
1170.00,0.4384
1172.00,0.4418
1174.00,0.4454
1176.00,0.4481
1178.00,0.4507
1180.00,0.4525
1182.00,0.4538
1184.00,0.4545
1186.00,0.4540
1188.00,0.4534
1190.00,0.4515
1192.00,0.4491
1194.00,0.4458
1196.00,0.4420
1198.00,0.4375
1200.00,0.4323
1202.00,0.4266
1204.00,0.4208
1206.00,0.4146
1208.00,0.4084
1210.00,0.4019
1212.00,0.3956
1214.00,0.3891
1216.00,0.3829
1218.00,0.3767
1220.00,0.3707
1222.00,0.3644
1224.00,0.3585
1226.00,0.3530
1228.00,0.3481
1230.00,0.3429
1232.00,0.3382
1234.00,0.3337
1236.00,0.3297
1238.00,0.3261
1240.00,0.3225
1242.00,0.3194
1244.00,0.3168
1246.00,0.3149
1248.00,0.3132
1250.00,0.3121
1252.00,0.3107
1254.00,0.3099
1256.00,0.3089
1258.00,0.3087
1260.00,0.3089
1262.00,0.3091
1264.00,0.3097
1266.00,0.3102
1268.00,0.3112
1270.00,0.3130
1272.00,0.3151
1274.00,0.3177
1276.00,0.3198
1278.00,0.3226
1280.00,0.3255
1282.00,0.3288
1284.00,0.3327
1286.00,0.3370
1288.00,0.3414
1290.00,0.3457
1292.00,0.3504
1294.00,0.3554
1296.00,0.3610
1298.00,0.3664
1300.00,0.3724
1302.00,0.3786
1304.00,0.3854
1306.00,0.3925
1308.00,0.3994
1310.00,0.4066
1312.00,0.4138
1314.00,0.4211
1316.00,0.4267
1318.00,0.4323
1320.00,0.4373
1322.00,0.4427
1324.00,0.4469
1326.00,0.4501
1328.00,0.4521
1330.00,0.4531
1332.00,0.4530
1334.00,0.4515
1336.00,0.4483
1338.00,0.4435
1340.00,0.4378
1342.00,0.4311
1344.00,0.4232
1346.00,0.4139
1348.00,0.4038
1350.00,0.3932
1352.00,0.3830
1354.00,0.3721
1356.00,0.3614
1358.00,0.3501
1360.00,0.3390
1362.00,0.3271
1364.00,0.3155
1366.00,0.3040
1368.00,0.2933
1370.00,0.2829
1372.00,0.2729
1374.00,0.2639
1376.00,0.2555
1378.00,0.2472
1380.00,0.2385
1382.00,0.2308
1384.00,0.2238
1386.00,0.2173
1388.00,0.2111
1390.00,0.2058
1392.00,0.2013
1394.00,0.1966
1396.00,0.1913
1398.00,0.1858
1400.00,0.1811
1402.00,0.1772
1404.00,0.1738
1406.00,0.1704
1408.00,0.1673
1410.00,0.1645
1412.00,0.1618
1414.00,0.1593
1416.00,0.1571
1418.00,0.1552
1420.00,0.1537
1422.00,0.1520
1424.00,0.1506
1426.00,0.1492
1428.00,0.1479
1430.00,0.1466
1432.00,0.1453
1434.00,0.1443
1436.00,0.1431
1438.00,0.1421
1440.00,0.1412
1442.00,0.1408
1444.00,0.1397
1446.00,0.1393
1448.00,0.1391
1450.00,0.1390
1452.00,0.1385
1454.00,0.1378
1456.00,0.1378
1458.00,0.1377
1460.00,0.1377
1462.00,0.1375
1464.00,0.1375
1466.00,0.1374
1468.00,0.1379
1470.00,0.1383
1472.00,0.1387
1474.00,0.1390
1476.00,0.1391
1478.00,0.1394
1480.00,0.1399
1482.00,0.1407
1484.00,0.1409
1486.00,0.1417
1488.00,0.1416
1490.00,0.1420
1492.00,0.1421
1494.00,0.1427
1496.00,0.1438
1498.00,0.1435
1500.00,0.1445
1502.00,0.1453
1504.00,0.1467
1506.00,0.1467
1508.00,0.1472
1510.00,0.1481
1512.00,0.1490
1514.00,0.1493
1516.00,0.1493
1518.00,0.1499
1520.00,0.1508
1522.00,0.1517
1524.00,0.1521
1526.00,0.1523
1528.00,0.1526
1530.00,0.1534
1532.00,0.1544
1534.00,0.1551
1536.00,0.1557
1538.00,0.1561
1540.00,0.1569
1542.00,0.1580
1544.00,0.1584
1546.00,0.1595
1548.00,0.1604
1550.00,0.1614
1552.00,0.1617
1554.00,0.1625
1556.00,0.1639
1558.00,0.1653
1560.00,0.1661
1562.00,0.1671
1564.00,0.1680
1566.00,0.1692
1568.00,0.1699
1570.00,0.1711
1572.00,0.1720
1574.00,0.1729
1576.00,0.1736
1578.00,0.1749
1580.00,0.1767
1582.00,0.1780
1584.00,0.1790
1586.00,0.1800
1588.00,0.1816
1590.00,0.1825
1592.00,0.1831
1594.00,0.1837
1596.00,0.1840
1598.00,0.1841
1600.00,0.1843
1602.00,0.1851
1604.00,0.1855
1606.00,0.1856
1608.00,0.1858
1610.00,0.1859
1612.00,0.1866
1614.00,0.1886
1616.00,0.1908
1618.00,0.1923
1620.00,0.1940
1622.00,0.1956
1624.00,0.1978
1626.00,0.1991
1628.00,0.2014
1630.00,0.2029
1632.00,0.2046
1634.00,0.2054
1636.00,0.2072
1638.00,0.2086
1640.00,0.2105
1642.00,0.2114
1644.00,0.2120
1646.00,0.2121
1648.00,0.2126
1650.00,-1.9446
1652.00,-4.1207
1654.00,-6.4691
1656.00,-6.8326
1658.00,-6.7877
1660.00,-6.7959
1662.00,-6.6095
1664.00,-6.9873
1666.00,-6.9990
1668.00,-7.0932
1670.00,-6.9487
1672.00,-6.9279
1674.00,-7.0527
1676.00,-6.9179
1678.00,-6.5915
1680.00,-6.3244
1682.00,-6.5670
1684.00,-6.9372
1686.00,-6.9613
1688.00,-6.7262
1690.00,-6.6658
1692.00,-6.6798
1694.00,-6.7390
1696.00,-7.0680
1698.00,-7.1831
1700.00,-7.2293
1702.00,-7.2194
1704.00,-6.7431
1706.00,-7.0182
1708.00,-6.9241
1710.00,-7.4377
1712.00,-7.2490
1714.00,-6.9342
1716.00,-6.6516
1718.00,-6.2079
1720.00,-6.5341
1722.00,-6.9890
1724.00,-7.2465
1726.00,-6.9995
1728.00,-6.8344
1730.00,-7.2359
1732.00,-7.0948
1734.00,-6.8013
1736.00,-6.3446
1738.00,-6.4021
1740.00,-6.4266
1742.00,-6.4261
1744.00,-6.4769
1746.00,-6.8000
1748.00,-6.9346
1750.00,-6.9339
1752.00,-6.6195
1754.00,-6.4827
1756.00,-6.3256
1758.00,-6.2972
1760.00,-6.2110
1762.00,-6.2359
1764.00,-6.1266
1766.00,-6.2716
1768.00,-6.0898
1770.00,-6.1048
1772.00,-5.9561
1774.00,-5.9547
1776.00,-5.8757
1778.00,-5.5530
1780.00,-5.4052
1782.00,-5.3351
1784.00,-5.5356
1786.00,-5.2081
1788.00,-4.6648
1790.00,-4.5053
1792.00,-4.7266
1794.00,-4.7020
1796.00,-4.4197
1798.00,-4.6414
1800.00,-4.8662
1802.00,-5.0348
1804.00,-4.9628
1806.00,-4.5033
1808.00,-3.7414
1810.00,-2.9151
1812.00,-2.6942
1814.00,-2.5533
1816.00,-2.6128
1818.00,-2.4082
1820.00,-2.1033
1822.00,-1.7812
1824.00,-1.1736
1826.00,-0.3665
1828.00,0.4432
1830.00,1.1723
1832.00,1.2280
1834.00,1.8917
1836.00,1.9508
1838.00,2.2706
1840.00,2.3575
1842.00,2.7196
1844.00,3.2163
1846.00,3.5444
1848.00,3.8335
1850.00,3.4556
1852.00,3.6178
1854.00,3.8683
1856.00,3.8753
1858.00,4.0523
1860.00,3.6957
1862.00,4.2329
1864.00,3.8444
1866.00,3.6256
1868.00,2.4484
1870.00,2.2385
1872.00,1.9168
1874.00,1.9661
1876.00,0.9784
1878.00,0.4715
1880.00,0.1425
1882.00,-0.0404
1884.00,-0.1129
1886.00,-0.0210
1888.00,-0.0895
1890.00,-0.4811
1892.00,-1.0166
1894.00,-1.1597
1896.00,-1.7466
1898.00,-2.1048
1900.00,-2.6937
1902.00,-2.8499
1904.00,-2.7566
1906.00,-2.7605
1908.00,-2.7704
1910.00,-3.3669
1912.00,-3.5766
1914.00,-3.8687
1916.00,-3.2210
1918.00,-3.4597
1920.00,-3.5121
1922.00,-3.7921
1924.00,-3.0713
1926.00,-2.6409
1928.00,-3.1631
1930.00,-3.4102
1932.00,-3.7437
1934.00,-3.3329
1936.00,-3.7234
1938.00,-3.7903
1940.00,-4.3062
1942.00,-4.0580
1944.00,-4.2468
1946.00,-3.4881
1948.00,-3.9838
1950.00,-4.0763
1952.00,-4.4399
1954.00,-4.0053
1956.00,-3.8920
1958.00,-4.2687
1960.00,-4.1478
1962.00,-4.3104
1964.00,-3.8955
1966.00,-4.3897
1968.00,-4.2879
1970.00,-4.5457
1972.00,-4.3531
1974.00,-4.1633
1976.00,-3.9004
1978.00,-3.7486
1980.00,-3.9996
1982.00,-3.9192
1984.00,-4.0769
1986.00,-3.6607
1988.00,-3.9444
1990.00,-4.2630
1992.00,-4.1308
1994.00,-4.5365
1996.00,-4.3168
1998.00,-4.3592
2000.00,-4.3754
2002.00,-4.2738
2004.00,-4.3010
2006.00,-4.1367
2008.00,-4.3818
2010.00,-4.9219
2012.00,-4.6078
2014.00,-4.4927
2016.00,-4.2710
2018.00,-4.4913
2020.00,-4.2687
2022.00,-4.3810
2024.00,-4.4565
2026.00,-4.8344
2028.00,-4.3545
2030.00,-4.4020
2032.00,-4.2540
2034.00,-4.5378
2036.00,-4.3049
2038.00,-4.0179
2040.00,-3.8121
2042.00,-3.4552
2044.00,-3.0035
2046.00,-3.1858
2048.00,-3.1634
2050.00,-3.5206
2052.00,-3.9843
2054.00,-3.9293
2056.00,-3.9801
2058.00,-3.4037
2060.00,-3.6265
2062.00,-4.4412
2064.00,-4.1124
2066.00,-3.7426
2068.00,-2.9782
2070.00,-2.8178
2072.00,-2.5586
2074.00,-1.8506
2076.00,-1.7738
2078.00,-1.9913
2080.00,-1.9569
2082.00,-2.1713
2084.00,-2.2576
2086.00,-2.8813
2088.00,-2.9173
2090.00,-3.1018
2092.00,-2.3403
2094.00,-1.8159
2096.00,-0.7490
2098.00,-0.1070
2100.00,-0.7032
2102.00,-1.9444
2104.00,-3.0658
2106.00,-2.6286
2108.00,-1.4081
2110.00,-0.8810
2112.00,-0.4047
2114.00,-0.5354
2116.00,-0.2439
2118.00,-0.4565
2120.00,-0.0455
2122.00,-0.1278
2124.00,0.2723
2126.00,0.7232
2128.00,0.9732
2130.00,0.7601
2132.00,0.5579
2134.00,0.6397
2136.00,1.0364
2138.00,1.0231
2140.00,1.1551
2142.00,1.3559
2144.00,1.7527
2146.00,2.3578
2148.00,2.5698
2150.00,2.4065
2152.00,2.4279
2154.00,3.6446
2156.00,4.3281
2158.00,5.5075
2160.00,5.5500
2162.00,6.5530
2164.00,6.4640
2166.00,6.3488
2168.00,7.1699
2170.00,7.8312
2172.00,9.0000
2174.00,9.1679
2176.00,9.8748
2178.00,10.6465
2180.00,10.8428
2182.00,11.2817
2184.00,11.0350
2186.00,12.0193
2188.00,12.3807
2190.00,13.2053
2192.00,13.0639
2194.00,14.9790
2196.00,16.2566
2198.00,17.2908
2200.00,18.0371
2202.00,18.1608
2204.00,19.0358
2206.00,18.7028
2208.00,20.6252
2210.00,22.8900
2212.00,24.4670
2214.00,23.8886
2216.00,23.2444
2218.00,23.1237
2220.00,24.4070
2222.00,25.3540
2224.00,26.1645
2226.00,27.0534
2228.00,26.9772
2230.00,27.2730
2232.00,28.0840
2234.00,29.1264
2236.00,30.5434
2238.00,30.7278
2240.00,30.9188
2242.00,31.0947
2244.00,31.1270
2246.00,31.0528
2248.00,30.5128
2250.00,31.2209
2252.00,31.9528
2254.00,32.4133
2256.00,31.1361
2258.00,29.8994
2260.00,29.2883
2262.00,29.1546
2264.00,29.6058
2266.00,28.8599
2268.00,29.0594
2270.00,27.7905
2272.00,28.1979
2274.00,27.5125
2276.00,27.6663
2278.00,26.7329
2280.00,26.3294
2282.00,26.1006
2284.00,25.2420
2286.00,24.6801
2288.00,23.8740
2290.00,22.5253
2292.00,22.1941
2294.00,21.0473
2296.00,20.9832
2298.00,19.5872
2300.00,20.0384
2302.00,20.3301
2304.00,20.9831
2306.00,19.4697
2308.00,18.3837
2310.00,18.1645
2312.00,17.7008
2314.00,17.1127
2316.00,15.8223
2318.00,16.0013
2320.00,16.2150
2322.00,15.2360
2324.00,14.7703
2326.00,14.1465
2328.00,13.5699
2330.00,14.0278
2332.00,13.3526
2334.00,13.4111
2336.00,12.3675
2338.00,11.8204
2340.00,12.7793
2342.00,12.5667
2344.00,13.0746
2346.00,11.7205
2348.00,11.6720
2350.00,11.6819
2352.00,11.5791
2354.00,10.2813
2356.00,9.5080
2358.00,9.7343
2360.00,10.9058
2362.00,10.0205
2364.00,9.4333
2366.00,9.1355
2368.00,10.8775
2370.00,10.5332
2372.00,10.6444
2374.00,8.9569
2376.00,9.3373
2378.00,9.1887
2380.00,9.6752
2382.00,10.0821
2384.00,8.6747
2386.00,7.7656
2388.00,6.7327
2390.00,7.8030
2392.00,8.3440
2394.00,7.2298
2396.00,5.9882
2398.00,5.6042
2400.00,6.7738
2402.00,6.7329
2404.00,6.4549
2406.00,5.9142
2408.00,4.2785
2410.00,4.3366
2412.00,3.4894
2414.00,5.1693
2416.00,5.2739
2418.00,5.1749
2420.00,6.6690
2422.00,6.7759
2424.00,6.6415
2426.00,5.8296
2428.00,5.4357
2430.00,6.3509
2432.00,5.3067
2434.00,5.7102
2436.00,6.3453
2438.00,5.5292
2440.00,6.0125
2442.00,5.0461
2444.00,6.4430
2446.00,5.6107
2448.00,4.4061
2450.00,3.1265
2452.00,2.9630
2454.00,3.1310
2456.00,2.7455
2458.00,3.4978
2460.00,5.0843
2462.00,5.7278
2464.00,5.4689
2466.00,6.3525
2468.00,6.5112
2470.00,5.0680
2472.00,4.6234
2474.00,3.9724
2476.00,3.3113
2478.00,2.4921
2480.00,2.3127
2482.00,4.4682
2484.00,5.8208
2486.00,8.2842
2488.00,8.4307
2490.00,5.2216
2492.00,5.1318
2494.00,4.6112
2496.00,5.8543
2498.00,5.8384
2500.00,5.8063
2502.00,6.0852
2504.00,4.9370
2506.00,5.3042
2508.00,5.7310
2510.00,6.0485
2512.00,5.6513
2514.00,5.4012
2516.00,5.5243
2518.00,6.0169
2520.00,6.6986
2522.00,6.5997
2524.00,5.9293
2526.00,5.4298
2528.00,4.7870
2530.00,5.1242
2532.00,5.2074
2534.00,5.4194
2536.00,6.1328
2538.00,5.9562
2540.00,5.9625
2542.00,4.9372
2544.00,5.5426
2546.00,5.7121
2548.00,6.2671
2550.00,5.9702
2552.00,6.2458
2554.00,6.5678
2556.00,7.6130
2558.00,9.0288
2560.00,9.9598
2562.00,9.2256
2564.00,8.8471
2566.00,7.4124
2568.00,8.3967
2570.00,9.0350
2572.00,9.7341
2574.00,10.0419
2576.00,10.0581
2578.00,10.1199
2580.00,9.0770
2582.00,8.2357
2584.00,7.1402
2586.00,6.7098
2588.00,8.2658
2590.00,9.3488
2592.00,10.4550
2594.00,10.1387
2596.00,10.4769
2598.00,10.0974
2600.00,9.6119
2602.00,9.4123
2604.00,11.3116
2606.00,10.9650
2608.00,11.3745
2610.00,10.2345
2612.00,9.4119
2614.00,11.2446
2616.00,11.0860
2618.00,12.5650
2620.00,12.8537
2622.00,14.7013
2624.00,13.9533
2626.00,12.4719
2628.00,11.4774
2630.00,12.3729
2632.00,12.8675
2634.00,13.4363
2636.00,13.0143
2638.00,13.3958
2640.00,13.0861
2642.00,13.8178
2644.00,13.2382
2646.00,13.5125
2648.00,13.7459
2650.00,14.1912
2652.00,13.5718
2654.00,14.3797
2656.00,13.9787
2658.00,15.0461
2660.00,13.9096
2662.00,13.8033
2664.00,13.1425
2666.00,14.9158
2668.00,16.9355
2670.00,18.7314
2672.00,18.5875
2674.00,17.1663
2676.00,15.3712
2678.00,15.9699
2680.00,16.0178
2682.00,15.9730
2684.00,15.8306
2686.00,16.5413
2688.00,16.8859
2690.00,15.7224
2692.00,14.6754
2694.00,14.2301
2696.00,14.1412
2698.00,12.9338
2700.00,12.7003
2702.00,12.3233
2704.00,12.2585
2706.00,13.4145
2708.00,12.7214
2710.00,12.4690
2712.00,12.0131
2714.00,10.8882
2716.00,10.1749
2718.00,10.1103
2720.00,9.5668
2722.00,9.7235
2724.00,8.9106
2726.00,7.9512
2728.00,7.1558
2730.00,7.2799
2732.00,6.3433
2734.00,7.0833
2736.00,6.6025
2738.00,6.9991
2740.00,6.2100
2742.00,6.7291
2744.00,5.9632
2746.00,5.4937
2748.00,4.4165
2750.00,4.6216
2752.00,2.8374
2754.00,2.2242
2756.00,2.0628
2758.00,2.5069
2760.00,1.8471
2762.00,2.0579
2764.00,1.5764
2766.00,1.3435
2768.00,0.8638
2770.00,0.5957
2772.00,1.5526
2774.00,2.1388
2776.00,2.9150
2778.00,2.8379
2780.00,2.9817
2782.00,2.3827
2784.00,1.9039
2786.00,1.7943
2788.00,1.8059
2790.00,1.9857
2792.00,1.5763
2794.00,1.6191
2796.00,1.4994
2798.00,1.4750
2800.00,1.1090
2802.00,1.7214
2804.00,2.1150
2806.00,1.6416
2808.00,1.7597
2810.00,1.8137
2812.00,1.5203
2814.00,1.0986
2816.00,0.8147
2818.00,0.3552
2820.00,0.3112
2822.00,0.3887
2824.00,0.5394
2826.00,1.3666
2828.00,2.2317
2830.00,2.0620
2832.00,2.5274
2834.00,2.3600
2836.00,1.8691
2838.00,1.8646
2840.00,1.9887
2842.00,1.7442
2844.00,2.4385
2846.00,2.3965
2848.00,2.0353
2850.00,2.1176
2852.00,2.4711
2854.00,2.1331
2856.00,2.4599
2858.00,2.2506
2860.00,2.0448
2862.00,1.4600
2864.00,2.0652
2866.00,2.2013
2868.00,2.7050
2870.00,3.2574
2872.00,3.6244
2874.00,3.3524
2876.00,3.4907
2878.00,3.9464
2880.00,4.1400
2882.00,3.7500
2884.00,3.2242
2886.00,3.6565
2888.00,2.7461
2890.00,2.7313
2892.00,3.2194
2894.00,3.2353
2896.00,2.0914
2898.00,2.0725
2900.00,2.5480
2902.00,2.0185
2904.00,2.8572
2906.00,3.9439
2908.00,4.2014
2910.00,3.1692
2912.00,3.7146
2914.00,3.3936
2916.00,2.9474
2918.00,3.0884
2920.00,3.2014
2922.00,3.4803
2924.00,2.9995
2926.00,2.9315
2928.00,2.7935
2930.00,3.2338
2932.00,2.8960
2934.00,3.3643
2936.00,2.0140
2938.00,1.2300
2940.00,1.4737
2942.00,1.7977
2944.00,1.7671
2946.00,2.8144
2948.00,3.5935
2950.00,3.7513
2952.00,3.0518
2954.00,3.4917
2956.00,3.1635
2958.00,2.8478
2960.00,2.4260
2962.00,2.0244
2964.00,2.3135
2966.00,2.9833
2968.00,3.3496
2970.00,2.7332
2972.00,3.0527
2974.00,1.5760
2976.00,1.8581
2978.00,2.2742
2980.00,2.2730
2982.00,2.9471
2984.00,3.8378
2986.00,2.3529
2988.00,2.7730
2990.00,3.4130
2992.00,2.3594
2994.00,2.0499
2996.00,3.3834
2998.00,2.7784
3000.00,2.4493
3002.00,2.8912
3004.00,2.8495
3006.00,3.4994
3008.00,3.2685
3010.00,3.1882
3012.00,3.0910
3014.00,3.0494
3016.00,2.6936
3018.00,2.7271
3020.00,2.4326
3022.00,2.7134
3024.00,2.6493
3026.00,2.4002
3028.00,2.2019
3030.00,2.6127
3032.00,2.2985
3034.00,2.7329
3036.00,2.8300
3038.00,3.2687
3040.00,3.1531
3042.00,2.7081
3044.00,3.1437
3046.00,3.0735
3048.00,2.7758
3050.00,3.1915
3052.00,2.8092
3054.00,2.4901
3056.00,1.8589
3058.00,1.5196
3060.00,2.0570
3062.00,1.3014
3064.00,1.0361
3066.00,0.7506
3068.00,0.6323
3070.00,0.3239
3072.00,0.5676
3074.00,1.0679
3076.00,0.7821
3078.00,0.6125
3080.00,1.6089
3082.00,2.4286
3084.00,2.9201
3086.00,3.3989
3088.00,3.8204
3090.00,3.8380
3092.00,3.2702
3094.00,3.5371
3096.00,4.2023
3098.00,3.6667
3100.00,3.2491
3102.00,3.0900
3104.00,2.3197
3106.00,1.6984
3108.00,1.6968
3110.00,2.6737
3112.00,2.8886
3114.00,2.5255
3116.00,2.9222
3118.00,3.1095
3120.00,2.7204
3122.00,2.6522
3124.00,3.4588
3126.00,3.2234
3128.00,2.9483
3130.00,2.8686
3132.00,2.0199
3134.00,2.2847
3136.00,1.6940
3138.00,2.5640
3140.00,2.7915
3142.00,3.4079
3144.00,3.2072
3146.00,2.4356
3148.00,2.4689
3150.00,3.3549
3152.00,3.3299
3154.00,4.5625
3156.00,2.9354
3158.00,2.6050
3160.00,1.2271
3162.00,2.3199
3164.00,2.8972
3166.00,2.3577
3168.00,1.9748
3170.00,1.7035
3172.00,0.2812
3174.00,0.8937
3176.00,0.5446
3178.00,0.4531
3180.00,0.3656
3182.00,1.3830
3184.00,1.6984
3186.00,2.1141
3188.00,1.7258
3190.00,1.0920
3192.00,1.5369
3194.00,0.6102
3196.00,0.0943
3198.00,-1.7411
3200.00,-0.1495
3202.00,-1.6846
3204.00,-1.1547
3206.00,-1.9866
3208.00,-0.4426
3210.00,0.1467
3212.00,2.7842
3214.00,3.0045
3216.00,9.6860
3218.00,7.8753
3220.00,12.6058
3222.00,9.3653
3224.00,7.8647
3226.00,8.0911
3228.00,5.8367
3230.00,4.2498
3232.00,5.8837
3234.00,0.8306
3236.00,-2.8620
3238.00,-7.5322
3240.00,-3.3155
3242.00,-3.5627
3244.00,-1.0274
3246.00,-0.6432
3248.00,1.0703
3250.00,-1.0725
3252.00,5.1051
3254.00,7.3010
3256.00,6.6453
3258.00,3.8442
3260.00,5.1134
3262.00,-1.0103
3264.00,-1.0565
3266.00,0.1747
3268.00,-0.5819
3270.00,-9.3430
3272.00,-10.6569
3274.00,-1.7983
3276.00,-0.7587
3278.00,-0.1560
3280.00,8.5041
3282.00,12.7380
3284.00,14.3024
3286.00,19.9669
3288.00,20.4185
3290.00,21.1099
3292.00,14.7424
3294.00,14.6568
3296.00,15.9033
3298.00,10.5667
3300.00,7.7544
