"from6 - RawData"
"Wavelength nm.","T%"
190.00,0.0473
192.00,0.0487
194.00,0.0510
196.00,0.0525
198.00,0.0539
200.00,0.0545
202.00,0.0548
204.00,0.0551
206.00,0.0559
208.00,0.0567
210.00,0.0571
212.00,0.0569
214.00,0.0572
216.00,0.0578
218.00,0.0584
220.00,0.0582
222.00,0.0580
224.00,0.0579
226.00,0.0579
228.00,0.0579
230.00,0.0580
232.00,0.0582
234.00,0.0585
236.00,0.0591
238.00,0.0595
240.00,0.0599
242.00,0.0598
244.00,0.0598
246.00,0.0595
248.00,0.0597
250.00,0.0596
252.00,0.0600
254.00,0.0599
256.00,0.0603
258.00,0.0601
260.00,0.0599
262.00,0.0595
264.00,0.0599
266.00,0.0599
268.00,0.0599
270.00,0.0596
272.00,0.0597
274.00,0.0599
276.00,0.0605
278.00,0.0603
280.00,0.0601
282.00,0.0597
284.00,0.0601
286.00,0.0602
288.00,0.0598
290.00,0.0597
292.00,0.0600
294.00,0.0540
296.00,0.0479
298.00,0.0420
300.00,0.0427
302.00,0.0428
304.00,0.0426
306.00,0.0424
308.00,0.0425
310.00,0.0423
312.00,0.0422
314.00,0.0419
316.00,0.0419
318.00,0.0419
320.00,0.0422
322.00,0.0421
324.00,0.0422
326.00,0.0416
328.00,0.0414
330.00,0.0413
332.00,0.0420
334.00,0.0420
336.00,0.0423
338.00,0.0422
340.00,0.0430
342.00,0.0428
344.00,0.0427
346.00,0.0424
348.00,0.0426
350.00,0.0428
352.00,0.0428
354.00,0.0428
356.00,0.0429
358.00,0.0430
360.00,0.0433
362.00,0.0444
364.00,0.0482
366.00,0.0593
368.00,0.0828
370.00,0.1189
372.00,0.1750
374.00,0.4149
376.00,1.2434
378.00,2.7741
380.00,4.7635
382.00,6.3443
384.00,6.9153
386.00,6.4442
388.00,5.5069
390.00,4.8429
392.00,4.4851
394.00,4.1631
396.00,3.7605
398.00,3.6000
400.00,3.9661
402.00,4.5519
404.00,4.7493
406.00,4.1580
408.00,2.9246
410.00,1.5611
412.00,0.6118
414.00,0.1645
416.00,0.0712
418.00,0.0594
420.00,0.0527
422.00,0.0497
424.00,0.0504
426.00,0.0562
428.00,0.0692
430.00,0.0967
432.00,0.1568
434.00,0.3186
436.00,0.8511
438.00,2.0993
440.00,4.1777
442.00,6.7913
444.00,9.0382
446.00,10.1555
448.00,9.8655
450.00,8.8342
452.00,7.9945
454.00,8.0782
456.00,8.9442
458.00,10.0028
460.00,10.3683
462.00,9.6495
464.00,7.9928
466.00,5.9053
468.00,4.1314
470.00,2.8459
472.00,2.1429
474.00,1.8443
476.00,1.9410
478.00,2.2987
480.00,2.6845
482.00,2.8203
484.00,2.5296
486.00,1.8411
488.00,1.1057
490.00,0.5803
492.00,0.3590
494.00,0.3107
496.00,0.3938
498.00,0.5999
500.00,0.9372
502.00,1.3900
504.00,1.9236
506.00,2.4372
508.00,2.7525
510.00,2.6813
512.00,2.1909
514.00,1.4173
516.00,0.7182
518.00,0.3026
520.00,0.2145
522.00,0.3024
524.00,0.4640
526.00,0.6350
528.00,0.7349
530.00,0.8634
532.00,1.6369
534.00,4.1576
536.00,9.0283
538.00,15.2803
540.00,20.5990
542.00,22.7861
544.00,21.5191
546.00,18.3515
548.00,15.6164
550.00,14.6953
552.00,15.5651
554.00,17.3714
556.00,19.0796
558.00,20.2905
560.00,21.0342
562.00,21.9414
564.00,22.9089
566.00,23.1932
568.00,22.1799
570.00,20.4956
572.00,19.6331
574.00,20.3902
576.00,22.4023
578.00,24.5094
580.00,25.4378
582.00,24.7251
584.00,23.0789
586.00,22.1270
588.00,22.5405
590.00,23.3864
592.00,23.2763
594.00,21.8755
596.00,20.1366
598.00,18.8287
600.00,18.2350
602.00,18.5403
604.00,20.2618
606.00,23.4855
608.00,27.1804
610.00,29.5782
612.00,29.4407
614.00,26.7896
616.00,22.8195
618.00,18.8221
620.00,15.7689
622.00,14.0963
624.00,13.7682
626.00,14.1576
628.00,14.2620
630.00,13.3622
632.00,11.4702
634.00,9.2568
636.00,7.6232
638.00,7.2615
640.00,8.4514
642.00,10.7896
644.00,13.1635
646.00,14.0802
648.00,12.6341
650.00,9.1994
652.00,5.3077
654.00,2.4115
656.00,0.9503
658.00,0.4428
660.00,0.3003
662.00,0.2638
664.00,0.2547
666.00,0.2518
668.00,0.2463
670.00,0.2374
672.00,0.2245
674.00,0.2112
676.00,0.2005
678.00,0.1954
680.00,0.1933
682.00,0.1914
684.00,0.1878
686.00,0.1883
688.00,0.2012
690.00,0.2373
692.00,0.3027
694.00,0.3966
696.00,0.5156
698.00,0.6715
700.00,0.9404
702.00,1.4781
704.00,2.3949
706.00,3.5796
708.00,4.6341
710.00,5.1381
712.00,4.9950
714.00,4.6489
716.00,4.7954
718.00,5.9425
720.00,7.9536
722.00,10.4571
724.00,12.9741
726.00,15.3641
728.00,17.4550
730.00,19.0524
732.00,19.8005
734.00,19.3098
736.00,17.5742
738.00,14.9692
740.00,12.3402
742.00,10.3610
744.00,9.4735
746.00,9.6453
748.00,10.6674
750.00,12.2600
752.00,14.1965
754.00,16.3396
756.00,18.5028
758.00,20.3910
760.00,21.5443
762.00,21.5560
764.00,20.3844
766.00,18.4479
768.00,16.4329
770.00,15.0103
772.00,14.6566
774.00,15.4494
776.00,16.9597
778.00,18.4413
780.00,19.1486
782.00,18.6834
784.00,17.0830
786.00,14.8548
788.00,12.7585
790.00,11.4917
792.00,11.5693
794.00,13.3223
796.00,16.8443
798.00,21.5480
800.00,26.1779
802.00,29.0525
804.00,29.1153
806.00,26.3641
808.00,21.9500
810.00,17.3091
812.00,13.5846
814.00,11.2043
816.00,10.1230
818.00,9.9742
820.00,10.3455
822.00,10.8331
824.00,11.0540
826.00,10.7447
828.00,9.8538
830.00,8.4467
832.00,6.9451
834.00,5.8430
836.00,5.3084
838.00,5.0887
840.00,4.9408
842.00,4.6164
844.00,3.9982
846.00,3.1388
848.00,2.2167
850.00,1.4223
852.00,0.8540
854.00,0.5108
856.00,0.3294
858.00,0.2405
860.00,0.1939
862.00,0.1674
864.00,0.1479
866.00,0.1358
868.00,0.1256
870.00,0.1236
872.00,0.1222
874.00,0.1213
876.00,0.1206
878.00,0.1280
880.00,0.1392
882.00,0.1521
884.00,0.1639
886.00,0.1725
888.00,0.1756
890.00,0.1685
892.00,0.1548
894.00,0.1371
896.00,0.1195
898.00,0.1064
900.00,0.0964
902.00,0.0906
904.00,0.0863
906.00,0.0841
908.00,0.0832
910.00,0.0828
912.00,0.0815
914.00,0.0816
916.00,0.0815
918.00,0.0834
920.00,0.0839
922.00,0.0855
924.00,0.0854
926.00,0.0872
928.00,0.0896
930.00,0.0939
932.00,0.0986
934.00,0.1011
936.00,0.1017
938.00,0.0996
940.00,0.0957
942.00,0.0901
944.00,0.0854
946.00,0.0824
948.00,0.0817
950.00,0.0808
952.00,0.0802
954.00,0.0793
956.00,0.0784
958.00,0.0783
960.00,0.0775
962.00,0.0772
964.00,0.0769
966.00,0.0771
968.00,0.0769
970.00,0.0772
972.00,0.0783
974.00,0.0802
976.00,0.0826
978.00,0.0853
980.00,0.0888
982.00,0.0924
984.00,0.0952
986.00,0.0964
988.00,0.0950
990.00,0.0920
992.00,0.0881
994.00,0.0843
996.00,0.0815
998.00,0.0790
1000.00,0.0778
1002.00,0.0767
1004.00,0.0765
1006.00,0.0761
1008.00,0.0761
1010.00,0.0758
1012.00,0.0761
1014.00,0.0763
1016.00,0.0771
1018.00,0.0773
1020.00,0.0775
1022.00,0.0778
1024.00,0.0792
1026.00,0.0823
1028.00,0.0877
1030.00,0.0965
1032.00,0.1078
1034.00,0.1178
1036.00,0.1222
1038.00,0.1184
1040.00,0.1091
1042.00,0.0974
1044.00,0.0882
1046.00,0.0818
1048.00,0.0789
1050.00,0.0771
1052.00,0.0763
1054.00,0.0758
1056.00,0.0761
1058.00,0.0758
1060.00,0.0757
1062.00,0.0750
1064.00,0.0750
1066.00,0.0748
1068.00,0.0749
1070.00,0.0750
1072.00,0.0751
1074.00,0.0753
1076.00,0.0752
1078.00,0.0753
1080.00,0.0756
1082.00,0.0756
1084.00,0.0757
1086.00,0.0758
1088.00,0.0759
1090.00,0.0761
1092.00,0.0762
1094.00,0.0766
1096.00,0.0768
1098.00,0.0770
1100.00,0.0773
1102.00,0.0776
1104.00,0.0782
1106.00,0.0793
1108.00,0.0812
1110.00,0.0844
1112.00,0.0900
1114.00,0.0987
1116.00,0.1094
1118.00,0.1198
1120.00,0.1259
1122.00,0.1255
1124.00,0.1187
1126.00,0.1082
1128.00,0.0979
1130.00,0.0900
1132.00,0.0849
1134.00,0.0817
1136.00,0.0794
1138.00,0.0781
1140.00,0.0771
1142.00,0.0767
1144.00,0.0762
1146.00,0.0758
1148.00,0.0758
1150.00,0.0754
1152.00,0.0751
1154.00,0.0745
1156.00,0.0743
1158.00,0.0740
1160.00,0.0737
1162.00,0.0737
1164.00,0.0738
1166.00,0.0738
1168.00,0.0739
1170.00,0.0742
1172.00,0.0745
1174.00,0.0750
1176.00,0.0758
1178.00,0.0771
1180.00,0.0781
1182.00,0.0794
1184.00,0.0806
1186.00,0.0821
1188.00,0.0836
1190.00,0.0851
1192.00,0.0861
1194.00,0.0866
1196.00,0.0869
1198.00,0.0869
1200.00,0.0866
1202.00,0.0862
1204.00,0.0859
1206.00,0.0857
1208.00,0.0853
1210.00,0.0849
1212.00,0.0846
1214.00,0.0848
1216.00,0.0850
1218.00,0.0851
1220.00,0.0852
1222.00,0.0852
1224.00,0.0857
1226.00,0.0857
1228.00,0.0861
1230.00,0.0862
1232.00,0.0867
1234.00,0.0870
1236.00,0.0874
1238.00,0.0878
1240.00,0.0884
1242.00,0.0891
1244.00,0.0897
1246.00,0.0902
1248.00,0.0908
1250.00,0.0914
1252.00,0.0923
1254.00,0.0931
1256.00,0.0939
1258.00,0.0945
1260.00,0.0954
1262.00,0.0963
1264.00,0.0971
1266.00,0.0976
1268.00,0.0982
1270.00,0.0991
1272.00,0.1002
1274.00,0.1010
1276.00,0.1018
1278.00,0.1023
1280.00,0.1029
1282.00,0.1038
1284.00,0.1046
1286.00,0.1053
1288.00,0.1057
1290.00,0.1059
1292.00,0.1063
1294.00,0.1062
1296.00,0.1064
1298.00,0.1063
1300.00,0.1064
1302.00,0.1064
1304.00,0.1064
1306.00,0.1062
1308.00,0.1061
1310.00,0.1060
1312.00,0.1064
1314.00,0.1067
1316.00,0.1073
1318.00,0.1078
1320.00,0.1087
1322.00,0.1097
1324.00,0.1111
1326.00,0.1119
1328.00,0.1128
1330.00,0.1138
1332.00,0.1148
1334.00,0.1160
1336.00,0.1171
1338.00,0.1188
1340.00,0.1203
1342.00,0.1217
1344.00,0.1230
1346.00,0.1250
1348.00,0.1275
1350.00,0.1301
1352.00,0.1330
1354.00,0.1362
1356.00,0.1396
1358.00,0.1425
1360.00,0.1452
1362.00,0.1474
1364.00,0.1495
1366.00,0.1512
1368.00,0.1528
1370.00,0.1545
1372.00,0.1563
1374.00,0.1582
1376.00,0.1601
1378.00,0.1623
1380.00,0.1651
1382.00,0.1689
1384.00,0.1736
1386.00,0.1793
1388.00,0.1857
1390.00,0.1929
1392.00,0.2012
1394.00,0.2099
1396.00,0.2189
1398.00,0.2271
1400.00,0.2350
1402.00,0.2421
1404.00,0.2487
1406.00,0.2546
1408.00,0.2594
1410.00,0.2636
1412.00,0.2673
1414.00,0.2706
1416.00,0.2737
1418.00,0.2767
1420.00,0.2798
1422.00,0.2829
1424.00,0.2860
1426.00,0.2890
1428.00,0.2921
1430.00,0.2948
1432.00,0.2979
1434.00,0.3008
1436.00,0.3038
1438.00,0.3069
1440.00,0.3099
1442.00,0.3128
1444.00,0.3153
1446.00,0.3180
1448.00,0.3203
1450.00,0.3224
1452.00,0.3240
1454.00,0.3254
1456.00,0.3262
1458.00,0.3266
1460.00,0.3270
1462.00,0.3270
1464.00,0.3272
1466.00,0.3270
1468.00,0.3270
1470.00,0.3272
1472.00,0.3275
1474.00,0.3281
1476.00,0.3286
1478.00,0.3295
1480.00,0.3307
1482.00,0.3322
1484.00,0.3335
1486.00,0.3348
1488.00,0.3362
1490.00,0.3378
1492.00,0.3397
1494.00,0.3416
1496.00,0.3440
1498.00,0.3465
1500.00,0.3488
1502.00,0.3514
1504.00,0.3542
1506.00,0.3575
1508.00,0.3613
1510.00,0.3657
1512.00,0.3701
1514.00,0.3750
1516.00,0.3807
1518.00,0.3875
1520.00,0.3954
1522.00,0.4031
1524.00,0.4123
1526.00,0.4224
1528.00,0.4347
1530.00,0.4484
1532.00,0.4637
1534.00,0.4804
1536.00,0.4979
1538.00,0.5170
1540.00,0.5371
1542.00,0.5589
1544.00,0.5820
1546.00,0.6064
1548.00,0.6312
1550.00,0.6557
1552.00,0.6797
1554.00,0.7031
1556.00,0.7253
1558.00,0.7460
1560.00,0.7652
1562.00,0.7827
1564.00,0.7989
1566.00,0.8128
1568.00,0.8261
1570.00,0.8388
1572.00,0.8513
1574.00,0.8638
1576.00,0.8769
1578.00,0.8913
1580.00,0.9068
1582.00,0.9244
1584.00,0.9448
1586.00,0.9685
1588.00,0.9953
1590.00,1.0259
1592.00,1.0611
1594.00,1.1015
1596.00,1.1470
1598.00,1.1993
1600.00,1.2598
1602.00,1.3300
1604.00,1.4106
1606.00,1.5051
1608.00,1.6165
1610.00,1.7501
1612.00,1.9087
1614.00,2.0959
1616.00,2.3148
1618.00,2.5735
1620.00,2.8860
1622.00,3.2751
1624.00,3.7558
1626.00,4.3428
1628.00,5.0417
1630.00,5.8747
1632.00,6.8809
1634.00,8.1325
1636.00,9.7005
1638.00,11.6285
1640.00,13.9645
1642.00,16.6981
1644.00,19.8640
1646.00,23.3713
1648.00,27.2260
1650.00,30.6175
1652.00,33.8167
1654.00,36.7263
1656.00,39.7676
1658.00,42.4571
1660.00,44.6477
1662.00,46.1918
1664.00,46.9331
1666.00,47.1621
1668.00,47.0510
1670.00,47.2282
1672.00,47.3991
1674.00,47.7156
1676.00,47.5283
1678.00,47.7105
1680.00,47.7544
1682.00,48.1470
1684.00,47.8252
1686.00,47.5883
1688.00,47.4444
1690.00,47.2047
1692.00,46.6925
1694.00,45.8281
1696.00,45.0704
1698.00,44.4638
1700.00,44.0474
1702.00,43.6519
1704.00,42.8040
1706.00,42.4117
1708.00,42.5839
1710.00,43.0145
1712.00,43.2396
1714.00,42.8924
1716.00,43.9878
1718.00,45.3510
1720.00,46.3690
1722.00,45.7199
1724.00,43.6331
1726.00,41.7053
1728.00,38.8263
1730.00,35.1763
1732.00,29.9526
1734.00,24.9981
1736.00,19.8970
1738.00,15.7350
1740.00,11.3684
1742.00,7.9203
1744.00,4.5658
1746.00,2.0906
1748.00,0.2848
1750.00,-0.8327
1752.00,-1.5475
1754.00,-2.4131
1756.00,-3.4422
1758.00,-4.5925
1760.00,-4.7761
1762.00,-4.5789
1764.00,-4.4171
1766.00,-5.1253
1768.00,-5.5839
1770.00,-6.2331
1772.00,-6.4284
1774.00,-6.4095
1776.00,-5.9219
1778.00,-5.7744
1780.00,-6.0594
1782.00,-6.2610
1784.00,-6.3574
1786.00,-6.1925
1788.00,-6.3120
1790.00,-6.4396
1792.00,-6.6268
1794.00,-6.7023
1796.00,-6.4579
1798.00,-6.6348
1800.00,-6.7682
1802.00,-6.8970
1804.00,-7.2328
1806.00,-7.3924
1808.00,-7.2586
1810.00,-7.0721
1812.00,-7.3399
1814.00,-7.8031
1816.00,-7.6754
1818.00,-7.4555
1820.00,-6.7614
1822.00,-6.4956
1824.00,-5.9126
1826.00,-6.0295
1828.00,-6.0007
1830.00,-6.3288
1832.00,-6.8741
1834.00,-7.0000
1836.00,-7.0225
1838.00,-6.8556
1840.00,-6.9312
1842.00,-6.7729
1844.00,-7.1768
1846.00,-6.8118
1848.00,-6.7904
1850.00,-6.3255
1852.00,-6.7468
1854.00,-6.6534
1856.00,-6.7890
1858.00,-6.6506
1860.00,-6.8473
1862.00,-6.4939
1864.00,-6.3613
1866.00,-5.8134
1868.00,-5.6410
1870.00,-5.9189
1872.00,-6.8058
1874.00,-7.1636
1876.00,-7.0726
1878.00,-6.7747
1880.00,-6.9823
1882.00,-6.7648
1884.00,-6.7257
1886.00,-6.4389
1888.00,-6.8289
1890.00,-6.4382
1892.00,-6.3621
1894.00,-6.1797
1896.00,-6.5835
1898.00,-6.9948
1900.00,-6.3414
1902.00,-6.1438
1904.00,-5.8286
1906.00,-6.6194
1908.00,-6.8923
1910.00,-7.2751
1912.00,-7.9671
1914.00,-7.6696
1916.00,-7.4171
1918.00,-6.8314
1920.00,-6.9879
1922.00,-6.9288
1924.00,-6.5193
1926.00,-6.3720
1928.00,-6.4397
1930.00,-6.7981
1932.00,-6.7268
1934.00,-6.4068
1936.00,-5.8981
1938.00,-6.2246
1940.00,-6.3530
1942.00,-6.7975
1944.00,-6.6049
1946.00,-6.8830
1948.00,-7.3240
1950.00,-7.3341
1952.00,-7.0560
1954.00,-6.5397
1956.00,-6.2947
1958.00,-6.5998
1960.00,-6.4668
1962.00,-6.9008
1964.00,-6.1908
1966.00,-6.0252
1968.00,-5.5680
1970.00,-6.3878
1972.00,-6.8488
1974.00,-6.7864
1976.00,-6.6090
1978.00,-6.2821
1980.00,-6.4690
1982.00,-6.1891
1984.00,-5.9099
1986.00,-6.1817
1988.00,-6.1498
1990.00,-6.3405
1992.00,-6.3725
1994.00,-6.6460
1996.00,-6.7542
1998.00,-6.9648
2000.00,-6.7539
2002.00,-6.7728
2004.00,-6.3359
2006.00,-6.7096
2008.00,-7.0747
2010.00,-7.4147
2012.00,-7.2835
2014.00,-6.7977
2016.00,-6.5944
2018.00,-6.7296
2020.00,-7.4776
2022.00,-7.7758
2024.00,-7.4190
2026.00,-6.8924
2028.00,-6.6570
2030.00,-6.9806
2032.00,-6.7985
2034.00,-7.4791
2036.00,-7.6284
2038.00,-7.9298
2040.00,-7.3292
2042.00,-7.0160
2044.00,-7.1046
2046.00,-6.5612
2048.00,-6.2587
2050.00,-5.7419
2052.00,-5.6901
2054.00,-5.8234
2056.00,-5.4256
2058.00,-5.9945
2060.00,-6.1274
2062.00,-6.8096
2064.00,-6.2721
2066.00,-6.0651
2068.00,-5.8938
2070.00,-6.7854
2072.00,-6.3151
2074.00,-6.7952
2076.00,-5.8436
2078.00,-5.4838
2080.00,-4.7016
2082.00,-5.1101
2084.00,-5.6121
2086.00,-5.8743
2088.00,-6.0237
2090.00,-6.3450
2092.00,-5.9913
2094.00,-5.7654
2096.00,-6.1898
2098.00,-6.9976
2100.00,-6.6304
2102.00,-6.1422
2104.00,-5.6011
2106.00,-6.5768
2108.00,-6.1781
2110.00,-6.6151
2112.00,-6.1944
2114.00,-7.0047
2116.00,-7.2009
2118.00,-6.7857
2120.00,-6.9621
2122.00,-6.2826
2124.00,-6.8665
2126.00,-6.4748
2128.00,-7.0538
2130.00,-6.3563
2132.00,-6.1975
2134.00,-5.7537
2136.00,-6.4176
2138.00,-6.5339
2140.00,-6.6236
2142.00,-6.4439
2144.00,-6.6228
2146.00,-7.2010
2148.00,-7.1674
2150.00,-6.8555
2152.00,-6.6496
2154.00,-6.4458
2156.00,-6.3122
2158.00,-6.0329
2160.00,-6.3335
2162.00,-6.1393
2164.00,-5.7250
2166.00,-5.8661
2168.00,-7.1370
2170.00,-7.8053
2172.00,-7.5414
2174.00,-6.1705
2176.00,-5.2457
2178.00,-5.1434
2180.00,-6.2872
2182.00,-6.5279
2184.00,-6.4173
2186.00,-5.7270
2188.00,-5.9297
2190.00,-5.7732
2192.00,-5.2187
2194.00,-5.6222
2196.00,-5.4872
2198.00,-6.4947
2200.00,-6.4573
2202.00,-6.7223
2204.00,-6.7318
2206.00,-6.9783
2208.00,-6.6058
2210.00,-5.3336
2212.00,-4.3522
2214.00,-4.9607
2216.00,-5.3080
2218.00,-6.0724
2220.00,-5.0399
2222.00,-5.4472
2224.00,-5.1291
2226.00,-5.5897
2228.00,-5.6289
2230.00,-6.0616
2232.00,-5.9012
2234.00,-5.3036
2236.00,-4.8028
2238.00,-4.9895
2240.00,-5.0986
2242.00,-4.1246
2244.00,-4.0200
2246.00,-3.8367
2248.00,-3.9926
2250.00,-3.9444
2252.00,-4.1320
2254.00,-4.3576
2256.00,-4.6898
2258.00,-4.4564
2260.00,-5.1747
2262.00,-4.7038
2264.00,-4.3719
2266.00,-3.6731
2268.00,-3.9258
2270.00,-3.6674
2272.00,-3.0075
2274.00,-2.2628
2276.00,-2.0036
2278.00,-1.9017
2280.00,-1.6491
2282.00,-1.7979
2284.00,-1.6063
2286.00,-1.6808
2288.00,-1.4532
2290.00,-0.8985
2292.00,-0.2644
2294.00,0.1767
2296.00,0.1136
2298.00,0.6957
2300.00,1.8081
2302.00,2.4197
2304.00,3.2372
2306.00,3.5530
2308.00,4.7221
2310.00,5.6758
2312.00,6.5218
2314.00,7.1593
2316.00,7.3894
2318.00,7.9364
2320.00,8.5175
2322.00,9.5956
2324.00,11.7424
2326.00,13.5052
2328.00,15.2045
2330.00,16.0029
2332.00,16.6833
2334.00,17.8346
2336.00,18.6662
2338.00,21.6706
2340.00,22.6100
2342.00,23.4517
2344.00,21.9396
2346.00,22.8231
2348.00,24.9710
2350.00,25.8956
2352.00,26.5827
2354.00,25.3137
2356.00,25.8782
2358.00,25.1327
2360.00,26.1438
2362.00,27.0424
2364.00,27.3394
2366.00,27.4660
2368.00,26.4317
2370.00,26.6162
2372.00,26.8673
2374.00,25.8549
2376.00,25.6956
2378.00,23.8556
2380.00,24.6862
2382.00,24.6849
2384.00,24.1082
2386.00,24.2174
2388.00,24.6759
2390.00,25.0108
2392.00,23.6492
2394.00,21.8372
2396.00,21.6418
2398.00,22.9160
2400.00,23.0203
2402.00,23.1566
2404.00,22.1054
2406.00,21.3774
2408.00,20.2080
2410.00,20.6783
2412.00,21.8391
2414.00,23.2317
2416.00,23.5348
2418.00,22.3642
2420.00,21.2031
2422.00,20.3045
2424.00,20.2560
2426.00,20.4816
2428.00,19.8131
2430.00,19.6462
2432.00,18.8612
2434.00,18.9649
2436.00,19.3730
2438.00,19.7765
2440.00,20.3217
2442.00,20.4407
2444.00,20.3682
2446.00,18.3054
2448.00,17.9224
2450.00,18.8642
2452.00,21.4618
2454.00,20.6937
2456.00,20.3079
2458.00,20.5884
2460.00,22.5622
2462.00,23.5715
2464.00,24.0918
2466.00,22.8576
2468.00,21.3119
2470.00,20.8087
2472.00,22.4214
2474.00,23.5874
2476.00,22.9014
2478.00,22.1188
2480.00,21.9828
2482.00,21.0194
2484.00,20.0636
2486.00,21.5534
2488.00,21.9452
2490.00,25.2089
2492.00,24.1803
2494.00,27.9504
2496.00,25.9416
2498.00,26.7190
2500.00,25.0985
2502.00,26.2385
2504.00,26.1383
2506.00,26.7453
2508.00,27.5538
2510.00,28.8260
2512.00,29.5146
2514.00,29.6783
2516.00,30.5823
2518.00,30.5814
2520.00,32.4307
2522.00,31.8011
2524.00,31.8480
2526.00,31.9750
2528.00,32.6834
2530.00,33.9927
2532.00,34.1532
2534.00,33.7603
2536.00,34.3001
2538.00,33.6416
2540.00,33.7878
2542.00,33.7950
2544.00,35.0224
2546.00,35.3559
2548.00,35.3623
2550.00,34.8143
2552.00,35.2456
2554.00,35.3055
2556.00,36.5695
2558.00,36.9944
2560.00,36.3529
2562.00,36.2561
2564.00,36.6610
2566.00,37.9101
2568.00,38.1119
2570.00,37.5662
2572.00,36.5677
2574.00,36.0732
2576.00,35.9377
2578.00,36.7414
2580.00,36.6915
2582.00,36.2430
2584.00,35.3074
2586.00,34.6111
2588.00,35.1507
2590.00,37.9871
2592.00,38.7977
2594.00,40.3427
2596.00,39.3303
2598.00,36.8934
2600.00,36.1089
2602.00,34.5021
2604.00,37.1984
2606.00,35.5900
2608.00,35.0322
2610.00,34.6066
2612.00,36.4335
2614.00,35.5375
2616.00,35.9996
2618.00,35.0046
2620.00,36.4284
2622.00,34.1698
2624.00,33.3356
2626.00,32.2930
2628.00,32.4914
2630.00,31.9369
2632.00,33.8568
2634.00,34.1265
2636.00,34.4125
2638.00,33.3780
2640.00,33.5163
2642.00,33.6482
2644.00,32.7711
2646.00,31.6029
2648.00,31.0509
2650.00,30.6859
2652.00,31.6755
2654.00,31.7473
2656.00,31.1318
2658.00,30.6289
2660.00,31.8817
2662.00,33.1048
2664.00,30.4404
2666.00,28.2112
2668.00,27.6957
2670.00,28.9525
2672.00,27.4144
2674.00,27.2173
2676.00,27.5704
2678.00,26.0168
2680.00,23.7258
2682.00,21.5525
2684.00,23.8831
2686.00,24.2730
2688.00,25.8252
2690.00,24.3994
2692.00,25.0779
2694.00,20.7245
2696.00,19.0008
2698.00,14.4576
2700.00,16.7367
2702.00,16.8985
2704.00,17.4612
2706.00,17.7423
2708.00,16.7763
2710.00,15.6757
2712.00,15.1017
2714.00,13.6105
2716.00,13.1016
2718.00,11.6456
2720.00,10.7311
2722.00,9.9134
2724.00,9.4734
2726.00,8.4320
2728.00,8.5850
2730.00,8.6937
2732.00,8.0938
2734.00,8.2546
2736.00,8.0346
2738.00,7.1728
2740.00,6.8589
2742.00,6.5674
2744.00,4.9520
2746.00,4.7500
2748.00,4.9282
2750.00,4.4277
2752.00,4.1577
2754.00,4.5108
2756.00,3.7826
2758.00,3.2077
2760.00,2.9566
2762.00,2.6957
2764.00,3.0609
2766.00,3.6971
2768.00,3.5446
2770.00,3.6048
2772.00,3.6170
2774.00,2.7600
2776.00,2.6328
2778.00,2.5433
2780.00,2.2978
2782.00,2.4373
2784.00,2.7630
2786.00,2.9109
2788.00,3.1051
2790.00,3.0305
2792.00,2.6831
2794.00,1.7069
2796.00,1.7120
2798.00,2.1860
2800.00,1.8452
2802.00,1.9877
2804.00,2.8920
2806.00,2.1705
2808.00,1.7612
2810.00,1.9308
2812.00,2.1827
2814.00,2.5527
2816.00,3.2901
2818.00,3.2090
2820.00,3.5196
2822.00,3.6150
2824.00,3.3722
2826.00,2.8750
2828.00,3.0895
2830.00,2.6813
2832.00,3.0945
2834.00,2.5844
2836.00,3.2288
2838.00,3.4311
2840.00,4.3031
2842.00,4.4803
2844.00,5.0340
2846.00,5.1660
2848.00,5.0886
2850.00,5.3537
2852.00,5.1235
2854.00,5.2927
2856.00,4.7292
2858.00,4.8638
2860.00,4.2336
2862.00,4.8607
2864.00,5.3914
2866.00,6.0882
2868.00,6.2088
2870.00,6.6807
2872.00,6.6922
2874.00,6.2298
2876.00,6.3332
2878.00,5.4919
2880.00,5.3414
2882.00,5.2804
2884.00,6.0873
2886.00,5.6564
2888.00,7.1091
2890.00,7.2805
2892.00,7.5440
2894.00,7.5395
2896.00,8.7309
2898.00,8.4257
2900.00,7.8940
2902.00,7.5533
2904.00,8.3429
2906.00,7.9308
2908.00,7.9022
2910.00,9.3796
2912.00,8.6632
2914.00,8.1518
2916.00,7.1527
2918.00,7.3124
2920.00,6.7872
2922.00,7.3677
2924.00,6.8750
2926.00,6.9707
2928.00,7.8577
2930.00,7.4734
2932.00,8.2330
2934.00,8.6566
2936.00,10.7544
2938.00,9.6667
2940.00,10.1093
2942.00,9.7455
2944.00,8.6226
2946.00,8.3690
2948.00,9.2057
2950.00,7.9996
2952.00,8.4792
2954.00,9.7621
2956.00,8.2041
2958.00,8.4762
2960.00,9.5435
2962.00,9.6515
2964.00,8.7562
2966.00,9.4818
2968.00,8.8473
2970.00,9.8831
2972.00,8.9024
2974.00,9.1101
2976.00,9.2885
2978.00,9.5396
2980.00,8.3396
2982.00,8.5491
2984.00,7.4381
2986.00,7.1313
2988.00,6.1783
2990.00,6.5519
2992.00,6.0549
2994.00,7.5988
2996.00,7.4364
2998.00,8.2575
3000.00,8.6937
3002.00,8.9122
3004.00,9.0444
3006.00,9.6322
3008.00,10.0270
3010.00,10.0642
3012.00,10.3766
3014.00,10.2126
3016.00,10.6099
3018.00,11.0271
3020.00,10.9824
3022.00,11.3805
3024.00,11.0106
3026.00,11.1795
3028.00,11.5303
3030.00,11.2236
3032.00,11.7676
3034.00,11.6499
3036.00,11.0297
3038.00,10.3308
3040.00,9.9587
3042.00,10.6491
3044.00,9.8458
3046.00,10.2636
3048.00,10.5633
3050.00,10.8127
3052.00,11.1669
3054.00,11.7823
3056.00,12.1269
3058.00,11.9320
3060.00,11.3990
3062.00,11.6013
3064.00,11.1274
3066.00,10.3151
3068.00,9.5941
3070.00,9.6491
3072.00,9.4222
3074.00,9.7543
3076.00,10.4325
3078.00,10.9391
3080.00,11.2647
3082.00,11.2581
3084.00,11.8248
3086.00,12.2988
3088.00,12.3226
3090.00,12.8780
3092.00,12.3492
3094.00,12.2342
3096.00,12.2400
3098.00,11.6863
3100.00,12.1296
3102.00,12.3619
3104.00,11.8030
3106.00,11.4010
3108.00,11.0620
3110.00,11.6079
3112.00,11.0509
3114.00,11.1725
3116.00,12.3121
3118.00,12.1488
3120.00,13.0470
3122.00,13.6556
3124.00,15.0586
3126.00,14.9207
3128.00,14.4688
3130.00,14.5951
3132.00,14.0180
3134.00,13.4657
3136.00,14.1631
3138.00,13.5140
3140.00,13.2453
3142.00,12.5415
3144.00,12.6804
3146.00,12.7711
3148.00,13.3293
3150.00,13.9567
3152.00,13.8998
3154.00,13.0487
3156.00,11.4674
3158.00,10.7177
3160.00,9.7868
3162.00,9.1876
3164.00,8.9463
3166.00,9.2196
3168.00,8.4749
3170.00,10.0457
3172.00,9.2271
3174.00,12.7831
3176.00,12.7657
3178.00,13.2034
3180.00,12.8785
3182.00,13.1525
3184.00,11.7273
3186.00,10.8513
3188.00,8.3210
3190.00,8.8686
3192.00,5.5367
3194.00,6.5124
3196.00,4.7436
3198.00,5.1569
3200.00,4.4869
3202.00,4.4779
3204.00,4.7229
3206.00,9.7818
3208.00,10.4023
3210.00,10.4611
3212.00,9.9871
3214.00,12.5997
3216.00,11.9474
3218.00,13.6172
3220.00,17.0015
3222.00,19.9299
3224.00,14.0541
3226.00,16.4000
3228.00,18.0275
3230.00,18.7905
3232.00,19.1836
3234.00,27.1157
3236.00,27.0269
3238.00,26.7556
3240.00,26.0231
3242.00,28.2527
3244.00,26.3944
3246.00,26.5513
3248.00,28.1954
3250.00,30.5871
3252.00,26.4879
3254.00,26.8850
3256.00,24.0108
3258.00,21.7427
3260.00,19.8514
3262.00,20.3801
3264.00,17.9517
3266.00,22.0784
3268.00,22.9988
3270.00,23.3205
3272.00,28.8480
3274.00,28.3015
3276.00,37.5552
3278.00,38.1568
3280.00,44.8722
3282.00,48.2557
3284.00,37.8476
3286.00,32.4185
3288.00,39.9931
3290.00,33.3729
3292.00,37.0139
3294.00,31.4227
3296.00,34.8187
3298.00,29.2500
3300.00,29.9656
